Timestamp,Accel_X_g,Accel_Y_g,Accel_Z_g,Gyro_X_dps,Gyro_Y_dps,Gyro_Z_dps
2025-08-10 18:48:17.545255,0.064208984375,0.056396484375,1.033203125,-1.801526665687561,1.198473334312439,1.8702290058135986
2025-08-10 18:48:17.650741,0.061279296875,0.051513671875,1.028076171875,-1.8091603517532349,1.14503812789917,1.801526665687561
2025-08-10 18:48:17.750847,0.059814453125,0.05029296875,1.03125,-1.6183205842971802,0.885496199131012,1.7480915784835815
2025-08-10 18:48:17.850758,0.055419921875,0.048583984375,1.03369140625,-1.732824444770813,1.122137427330017,1.7557251453399658
2025-08-10 18:48:17.953897,0.05859375,0.055908203125,1.0224609375,-1.6641221046447754,0.9160305261611938,1.7404580116271973
2025-08-10 18:48:18.059969,0.059814453125,0.051513671875,1.03369140625,-1.8091603517532349,1.0687023401260376,1.9541984796524048
2025-08-10 18:48:18.159496,0.062255859375,0.051025390625,1.02099609375,-1.7175573110580444,0.9694656729698181,1.9923664331436157
2025-08-10 18:48:18.260642,0.061279296875,0.05126953125,1.026611328125,-1.7862595319747925,1.14503812789917,1.8244274854660034
2025-08-10 18:48:18.360607,0.05908203125,0.04931640625,1.029296875,-1.7022900581359863,0.9312977194786072,1.6564885377883911
2025-08-10 18:48:18.461002,0.059326171875,0.053955078125,1.020263671875,-1.7557251453399658,0.9083969593048096,1.770992398262024
2025-08-10 18:48:18.560566,0.058349609375,0.04931640625,1.02294921875,-1.7251908779144287,1.1145038604736328,1.7633588314056396
2025-08-10 18:48:18.659716,0.059814453125,0.0537109375,1.025634765625,-1.4885495901107788,0.9541984796524048,1.8854961395263672
2025-08-10 18:48:18.760535,0.057861328125,0.05712890625,1.025146484375,-1.6641221046447754,0.9160305261611938,1.8244274854660034
2025-08-10 18:48:18.860625,0.066162109375,0.0537109375,1.0234375,-1.6335878372192383,0.9541984796524048,1.770992398262024
2025-08-10 18:48:18.964954,0.0615234375,0.0537109375,1.028076171875,-1.6870229244232178,1.14503812789917,1.6870229244232178
2025-08-10 18:48:19.070681,0.060302734375,0.052490234375,1.0185546875,-1.6717556715011597,1.0610686540603638,1.8702290058135986
2025-08-10 18:48:19.170689,0.0576171875,0.052490234375,1.025146484375,-1.7099236249923706,0.8396946787834167,1.85496187210083
2025-08-10 18:48:19.270702,0.066162109375,0.05224609375,1.031005859375,-1.8091603517532349,1.0152671337127686,1.770992398262024
2025-08-10 18:48:19.371122,0.060302734375,0.05322265625,1.027587890625,-1.7175573110580444,1.0152671337127686,1.6259541511535645
2025-08-10 18:48:19.470631,0.06103515625,0.049072265625,1.025146484375,-1.839694619178772,1.0152671337127686,1.732824444770813
2025-08-10 18:48:19.570572,0.05908203125,0.04736328125,1.0234375,-1.7099236249923706,0.9541984796524048,1.7938930988311768
2025-08-10 18:48:19.670304,0.056884765625,0.055908203125,1.028076171875,-1.7251908779144287,0.9465649127960205,1.694656491279602
2025-08-10 18:48:19.770353,0.064208984375,0.05029296875,1.023681640625,-1.9389313459396362,1.0916030406951904,1.8702290058135986
2025-08-10 18:48:19.870429,0.058349609375,0.049560546875,1.032958984375,-1.801526665687561,1.038167953491211,1.8473281860351562
2025-08-10 18:48:19.974503,0.062255859375,0.0498046875,1.027587890625,-1.7175573110580444,1.1374045610427856,1.85496187210083
2025-08-10 18:48:20.079762,0.058349609375,0.055908203125,1.02587890625,-1.7022900581359863,1.1755725145339966,1.732824444770813
2025-08-10 18:48:20.180353,0.06103515625,0.04931640625,1.0205078125,-1.7022900581359863,0.9465649127960205,1.732824444770813
2025-08-10 18:48:20.279745,0.065673828125,0.05419921875,1.026123046875,-1.8167939186096191,0.9389312863349915,1.801526665687561
2025-08-10 18:48:20.380287,0.055908203125,0.05126953125,1.026123046875,-1.5267175436019897,0.9694656729698181,1.85496187210083
2025-08-10 18:48:20.479421,0.091064453125,0.046630859375,0.996337890625,-24.366413116455078,25.23664093017578,1.198473334312439
2025-08-10 18:48:20.580459,0.050537109375,0.036376953125,1.0458984375,-2.1221373081207275,1.106870174407959,3.0992367267608643
2025-08-10 18:48:20.680376,0.182373046875,-0.006103515625,1.247314453125,7.534351348876953,21.290077209472656,24.923664093017578
2025-08-10 18:48:20.780346,-0.15283203125,0.263916015625,1.3515625,89.69465637207031,53.511451721191406,-121.36640930175781
2025-08-10 18:48:20.880412,-0.22802734375,0.138916015625,0.970458984375,-122.16030883789062,61.610687255859375,-166.22137451171875
2025-08-10 18:48:20.984471,-0.402099609375,-0.051513671875,1.1103515625,-128.1526641845703,250.12977600097656,-16.633586883544922
2025-08-10 18:48:21.090370,-0.37451171875,0.121337890625,-0.1396484375,85.01526641845703,250.12977600097656,28.96183204650879
2025-08-10 18:48:21.190328,-0.78125,0.019287109375,-0.556396484375,2.748091697692871,-11.229007720947266,16.03816795349121
2025-08-10 18:48:21.290476,-0.8642578125,0.593994140625,0.82421875,74.86259460449219,-250.1374053955078,-115.0457992553711
2025-08-10 18:48:21.390072,0.641357421875,-0.03759765625,0.932373046875,-19.282442092895508,-250.1374053955078,-50.39694595336914
2025-08-10 18:48:21.490285,0.27001953125,-0.144775390625,1.055908203125,9.12977123260498,103.65648651123047,-15.664122581481934
2025-08-10 18:48:21.590418,0.0849609375,-0.076171875,1.322021484375,-12.893129348754883,250.12977600097656,-71.41984558105469
2025-08-10 18:48:21.690316,-0.054931640625,-0.212646484375,1.053466796875,-49.49618148803711,250.12977600097656,74.32061004638672
2025-08-10 18:48:21.790311,-0.884765625,0.008544921875,0.052734375,-91.09160614013672,150.6335906982422,-14.503816604614258
2025-08-10 18:48:21.890278,-1.009033203125,-0.036865234375,-0.0830078125,-12.740458488464355,-173.4580078125,-83.43511199951172
2025-08-10 18:48:21.994061,-0.361572265625,-0.249267578125,0.716552734375,43.13740539550781,-250.1374053955078,-218.9007568359375
2025-08-10 18:48:22.100312,0.729736328125,-0.037841796875,0.912109375,134.05343627929688,-250.1374053955078,-68.65648651123047
2025-08-10 18:48:22.200453,0.571533203125,-0.129638671875,0.80615234375,16.572519302368164,135.74046325683594,-0.8244274854660034
2025-08-10 18:48:22.300454,0.049560546875,-0.079345703125,1.300537109375,-48.732826232910156,250.12977600097656,-43.74809265136719
2025-08-10 18:48:22.400312,-0.199951171875,-0.154541015625,1.327880859375,-12.458015441894531,250.12977600097656,14.114503860473633
2025-08-10 18:48:22.500311,-0.609375,0.00439453125,-0.2353515625,-51.35114669799805,5.503816604614258,-55.33587646484375
2025-08-10 18:48:22.600353,-0.55322265625,-0.082763671875,0.289794921875,14.923664093017578,-250.1374053955078,-25.908397674560547
2025-08-10 18:48:22.700364,0.7607421875,0.09814453125,1.25732421875,82.33587646484375,-250.1374053955078,77.48091888427734
2025-08-10 18:48:22.799711,0.20947265625,-0.0869140625,1.16748046875,47.7557258605957,-11.274808883666992,4.992366313934326
2025-08-10 18:48:22.900388,0.193115234375,0.07568359375,1.23681640625,-31.671754837036133,250.12977600097656,-109.73282623291016
2025-08-10 18:48:23.004442,-0.2236328125,0.032470703125,1.3759765625,-46.86259460449219,250.12977600097656,-50.96183395385742
2025-08-10 18:48:23.110411,-0.547119140625,-0.00146484375,0.174560546875,-71.6717529296875,206.16793823242188,-53.5572509765625
2025-08-10 18:48:23.209734,-0.704345703125,-0.170166015625,0.101318359375,21.39694595336914,-205.93130493164062,-9.412213325500488
2025-08-10 18:48:23.309739,0.473876953125,-0.06103515625,0.9794921875,46.70228958129883,-250.1374053955078,-4.923664093017578
2025-08-10 18:48:23.409755,-0.236328125,-0.050048828125,1.474609375,72.76335906982422,-92.90076446533203,43.8015251159668
2025-08-10 18:48:23.510300,0.1142578125,0.03662109375,1.111083984375,-5.656488418579102,186.04580688476562,-39.488548278808594
2025-08-10 18:48:23.609520,-0.315185546875,0.008056640625,1.357177734375,-13.885496139526367,250.12977600097656,-9.534351348876953
2025-08-10 18:48:23.709642,-0.406494140625,-0.063720703125,0.369384765625,-46.229007720947266,250.12977600097656,-1.2748091220855713
2025-08-10 18:48:23.809744,-0.96435546875,-0.090087890625,0.11572265625,-20.97709846496582,-0.3129771053791046,-5.14503812789917
2025-08-10 18:48:23.910397,-0.2958984375,-0.124267578125,0.4990234375,-5.152671813964844,-250.1374053955078,-105.23664093017578
2025-08-10 18:48:24.014448,0.279541015625,0.08056640625,1.29833984375,97.1832046508789,-250.1374053955078,-20.51908302307129
2025-08-10 18:48:24.120507,0.256591796875,-0.044677734375,1.04150390625,7.366412162780762,128.05343627929688,-41.114501953125
2025-08-10 18:48:24.220776,-0.191650390625,0.089111328125,1.33056640625,-0.9007633328437805,250.12977600097656,-24.137405395507812
2025-08-10 18:48:24.320317,-0.486572265625,0.006591796875,0.546630859375,-11.259541511535645,250.12977600097656,-11.38167953491211
2025-08-10 18:48:24.420341,-0.800537109375,-0.085205078125,0.21484375,-8.068702697753906,-24.053434371948242,-10.206107139587402
2025-08-10 18:48:24.520324,-0.30615234375,-0.050048828125,0.44921875,-40.5572509765625,-250.1374053955078,-51.167938232421875
2025-08-10 18:48:24.620330,-0.028564453125,0.032470703125,1.756103515625,91.4427490234375,-250.1374053955078,49.770992279052734
2025-08-10 18:48:24.720294,0.3505859375,-0.069091796875,0.950439453125,27.58015251159668,136.14503479003906,-0.1221374049782753
2025-08-10 18:48:24.820614,-0.542236328125,0.068359375,1.392333984375,-4.969465732574463,250.12977600097656,-47.79389190673828
2025-08-10 18:48:24.920554,-0.27587890625,-0.095458984375,0.991943359375,-5.832061290740967,250.12977600097656,-58.374046325683594
2025-08-10 18:48:25.024690,-0.6376953125,-0.0859375,0.31591796875,-11.496183395385742,-61.39694595336914,-18.64122200012207
2025-08-10 18:48:25.130513,-0.206298828125,-0.1298828125,0.419921875,-10.251908302307129,-250.1374053955078,1.4732824563980103
2025-08-10 18:48:25.230324,0.200439453125,-0.050048828125,1.715576171875,129.3511505126953,-250.1374053955078,114.12976837158203
2025-08-10 18:48:25.330543,-0.02734375,0.06640625,1.01953125,25.068702697753906,115.91603088378906,-12.22137451171875
2025-08-10 18:48:25.429669,-0.476318359375,0.094970703125,1.28369140625,-17.229007720947266,204.04580688476562,-33.16030502319336
2025-08-10 18:48:25.530714,-0.1689453125,0.021728515625,1.10107421875,-2.8091602325439453,250.12977600097656,-45.74809265136719
2025-08-10 18:48:25.630566,-0.751708984375,-0.036376953125,0.326416015625,-20.648855209350586,-4.244274616241455,-12.847328186035156
2025-08-10 18:48:25.730560,-0.4921875,-0.1005859375,0.398681640625,-19.969465255737305,-211.87786865234375,-3.7633588314056396
2025-08-10 18:48:25.830661,0.047607421875,-0.03759765625,1.7021484375,52.96183395385742,-250.1374053955078,74.91603088378906
2025-08-10 18:48:25.930685,-0.029052734375,-0.0654296875,1.038330078125,67.16030883789062,250.12977600097656,11.847328186035156
2025-08-10 18:48:26.034181,-0.944091796875,0.10595703125,1.164794921875,37.564884185791016,250.12977600097656,-42.47328186035156
2025-08-10 18:48:26.140754,-0.324951171875,0.028076171875,0.50634765625,-38.09160232543945,195.10687255859375,-50.22137451171875
2025-08-10 18:48:26.240744,-0.778564453125,-0.130859375,0.333984375,-18.549617767333984,-46.97710037231445,8.67175579071045
2025-08-10 18:48:26.340583,-0.040283203125,-0.095458984375,1.199951171875,-2.755725145339966,-250.1374053955078,36.97710037231445
2025-08-10 18:48:26.439757,-0.847412109375,-0.0205078125,1.3232421875,41.95419692993164,-30.709922790527344,41.41221237182617
2025-08-10 18:48:26.540726,-0.4130859375,0.000244140625,1.15234375,54.32061004638672,250.12977600097656,-35.79389190673828
2025-08-10 18:48:26.640796,-0.493896484375,-0.00146484375,0.90283203125,3.244274854660034,250.12977600097656,-64.36640930175781
2025-08-10 18:48:26.740305,-0.445556640625,-0.116943359375,0.383056640625,-12.732824325561523,-8.816793441772461,-6.793893337249756
2025-08-10 18:48:26.840577,-0.294189453125,-0.072998046875,0.51708984375,-4.312977313995361,-235.22900390625,38.8015251159668
2025-08-10 18:48:26.940466,-0.60986328125,0.07080078125,1.531494140625,-20.152671813964844,-250.1374053955078,76.79389190673828
2025-08-10 18:48:27.044377,-0.060791015625,-0.047119140625,1.0400390625,26.908397674560547,116.9542007446289,-17.267175674438477
2025-08-10 18:48:27.150206,-0.60791015625,0.063232421875,1.19482421875,43.54198455810547,250.12977600097656,-73.33587646484375
2025-08-10 18:48:27.250176,-0.28564453125,-0.03759765625,0.449462890625,-15.206107139587402,40.32061004638672,-24.969465255737305
2025-08-10 18:48:27.350174,-0.051513671875,-0.041748046875,0.661865234375,-35.32061004638672,-250.1374053955078,46.167938232421875
